"rt","stimulus","response","trial_type","trial_index","time_elapsed","internal_node_id","task","brightness","correct_response","congruency","correct"
"58714","Welcome to the experiment. Press any key to begin.","enter","html-keyboard-response","0","58723","0.0-0.0","","","","",""
"11972","
      <p>In this task, you will see word in a color</p>
      <p style='color:red;font-size:60pt;'>BLUE</p>
      <p>Press r, g, b, or y to identify the color, not the word</p>
      <p>E.g., press r for red in this example</p>
      <p>Make your responses as quickly and accurately as possible</p>
      <p>Press any key to begin.</p>
      ","enter","html-keyboard-response","1","70698","0.0-1.0","","","","",""
"null","<div style=""font-size:60px;"">+</div>","null","html-keyboard-response","2","74716","0.0-2.0-0.0","fixation","","","",""
"2414","<p style='font-size:60pt; opacity:.1; color:red;'>RED</p>","r","html-keyboard-response","3","77132","0.0-2.0-1.0","stroop","dim","r","Congruent","true"
"null","<div style=""font-size:60px;"">+</div>","null","html-keyboard-response","4","79143","0.0-2.0-0.1","fixation","","","",""
"25335","<p style='font-size:60pt; opacity:.1; color:blue;'>RED</p>","b","html-keyboard-response","5","104480","0.0-2.0-1.1","stroop","dim","b","Incongruent","true"
"null","<div style=""font-size:60px;"">+</div>","null","html-keyboard-response","6","105490","0.0-2.0-0.2","fixation","","","",""
"1637","<p style='font-size:60pt; opacity:.1; color:blue;'>YELLOW</p>","b","html-keyboard-response","7","107129","0.0-2.0-1.2","stroop","dim","b","Incongruent","true"
"null","<div style=""font-size:60px;"">+</div>","null","html-keyboard-response","8","109141","0.0-2.0-0.3","fixation","","","",""
"3344","<p style='font-size:60pt; opacity:.1; color:yellow;'>GREEN</p>","y","html-keyboard-response","9","112486","0.0-2.0-1.3","stroop","dim","y","Incongruent","true"
"null","<div style=""font-size:60px;"">+</div>","null","html-keyboard-response","10","114493","0.0-2.0-0.4","fixation","","","",""
"2332","<p style='font-size:60pt; opacity:.1; color:red;'>GREEN</p>","r","html-keyboard-response","11","116826","0.0-2.0-1.4","stroop","dim","r","Incongruent","true"
"null","<div style=""font-size:60px;"">+</div>","null","html-keyboard-response","12","117852","0.0-2.0-0.5","fixation","","","",""
"1104","<p style='font-size:60pt; opacity:.1; color:red;'>RED</p>","r","html-keyboard-response","13","118957","0.0-2.0-1.5","stroop","dim","r","Congruent","true"
"null","<div style=""font-size:60px;"">+</div>","null","html-keyboard-response","14","120966","0.0-2.0-0.6","fixation","","","",""
"1156","<p style='font-size:60pt; opacity:.1; color:blue;'>BLUE</p>","b","html-keyboard-response","15","122124","0.0-2.0-1.6","stroop","dim","b","Congruent","true"
"null","<div style=""font-size:60px;"">+</div>","null","html-keyboard-response","16","123131","0.0-2.0-0.7","fixation","","","",""
"2136","<p style='font-size:60pt; opacity:.1; color:yellow;'>BLUE</p>","y","html-keyboard-response","17","125268","0.0-2.0-1.7","stroop","dim","y","Incongruent","true"
"null","<div style=""font-size:60px;"">+</div>","null","html-keyboard-response","18","127274","0.0-2.0-0.8","fixation","","","",""
"1506","<p style='font-size:60pt; opacity:.1; color:green;'>GREEN</p>","g","html-keyboard-response","19","128780","0.0-2.0-1.8","stroop","dim","g","Congruent","true"
"null","<div style=""font-size:60px;"">+</div>","null","html-keyboard-response","20","130812","0.0-2.0-0.9","fixation","","","",""
"1691","<p style='font-size:60pt; opacity:.1; color:red;'>YELLOW</p>","r","html-keyboard-response","21","132504","0.0-2.0-1.9","stroop","dim","r","Incongruent","true"
"null","<div style=""font-size:60px;"">+</div>","null","html-keyboard-response","22","134514","0.0-2.0-0.10","fixation","","","",""
"1896","<p style='font-size:60pt; opacity:.1; color:green;'>YELLOW</p>","g","html-keyboard-response","23","136412","0.0-2.0-1.10","stroop","dim","g","Incongruent","true"
"null","<div style=""font-size:60px;"">+</div>","null","html-keyboard-response","24","138438","0.0-2.0-0.11","fixation","","","",""
"2872","<p style='font-size:60pt; opacity:.1; color:red;'>BLUE</p>","r","html-keyboard-response","25","141312","0.0-2.0-1.11","stroop","dim","r","Incongruent","true"
"null","<div style=""font-size:60px;"">+</div>","null","html-keyboard-response","26","143325","0.0-2.0-0.12","fixation","","","",""
"981","<p style='font-size:60pt; opacity:.1; color:green;'>GREEN</p>","g","html-keyboard-response","27","144307","0.0-2.0-1.12","stroop","dim","g","Congruent","true"
"null","<div style=""font-size:60px;"">+</div>","null","html-keyboard-response","28","145317","0.0-2.0-0.13","fixation","","","",""
"1174","<p style='font-size:60pt; opacity:.1; color:green;'>GREEN</p>","g","html-keyboard-response","29","146493","0.0-2.0-1.13","stroop","dim","g","Congruent","true"
"null","<div style=""font-size:60px;"">+</div>","null","html-keyboard-response","30","148500","0.0-2.0-0.14","fixation","","","",""
"1470","<p style='font-size:60pt; opacity:.1; color:blue;'>BLUE</p>","b","html-keyboard-response","31","149971","0.0-2.0-1.14","stroop","dim","b","Congruent","true"
"null","<div style=""font-size:60px;"">+</div>","null","html-keyboard-response","32","150981","0.0-2.0-0.15","fixation","","","",""
"1414","<p style='font-size:60pt; opacity:.1; color:green;'>RED</p>","g","html-keyboard-response","33","152396","0.0-2.0-1.15","stroop","dim","g","Incongruent","true"
"null","<div style=""font-size:60px;"">+</div>","null","html-keyboard-response","34","153402","0.0-2.0-0.16","fixation","","","",""
"1935","<p style='font-size:60pt; opacity:.1; color:yellow;'>RED</p>","y","html-keyboard-response","35","155338","0.0-2.0-1.16","stroop","dim","y","Incongruent","true"
"null","<div style=""font-size:60px;"">+</div>","null","html-keyboard-response","36","156348","0.0-2.0-0.17","fixation","","","",""
"1116","<p style='font-size:60pt; opacity:.1; color:blue;'>BLUE</p>","b","html-keyboard-response","37","157464","0.0-2.0-1.17","stroop","dim","b","Congruent","true"
"null","<div style=""font-size:60px;"">+</div>","null","html-keyboard-response","38","158477","0.0-2.0-0.18","fixation","","","",""
"1364","<p style='font-size:60pt; opacity:.1; color:yellow;'>YELLOW</p>","y","html-keyboard-response","39","159841","0.0-2.0-1.18","stroop","dim","y","Congruent","true"
"null","<div style=""font-size:60px;"">+</div>","null","html-keyboard-response","40","160853","0.0-2.0-0.19","fixation","","","",""
"1328","<p style='font-size:60pt; opacity:.1; color:green;'>BLUE</p>","g","html-keyboard-response","41","162182","0.0-2.0-1.19","stroop","dim","g","Incongruent","true"
"null","<div style=""font-size:60px;"">+</div>","null","html-keyboard-response","42","163210","0.0-2.0-0.20","fixation","","","",""
"1744","<p style='font-size:60pt; opacity:.1; color:blue;'>GREEN</p>","b","html-keyboard-response","43","164955","0.0-2.0-1.20","stroop","dim","b","Incongruent","true"
"null","<div style=""font-size:60px;"">+</div>","null","html-keyboard-response","44","166964","0.0-2.0-0.21","fixation","","","",""
"1394","<p style='font-size:60pt; opacity:.1; color:yellow;'>YELLOW</p>","y","html-keyboard-response","45","168359","0.0-2.0-1.21","stroop","dim","y","Congruent","true"
"null","<div style=""font-size:60px;"">+</div>","null","html-keyboard-response","46","170388","0.0-2.0-0.22","fixation","","","",""
"1013","<p style='font-size:60pt; opacity:.1; color:red;'>RED</p>","r","html-keyboard-response","47","171402","0.0-2.0-1.22","stroop","dim","r","Congruent","true"
"null","<div style=""font-size:60px;"">+</div>","null","html-keyboard-response","48","173413","0.0-2.0-0.23","fixation","","","",""
"1645","<p style='font-size:60pt; opacity:.1; color:yellow;'>YELLOW</p>","y","html-keyboard-response","49","175059","0.0-2.0-1.23","stroop","dim","y","Congruent","true"
"5603","<p>You responded correctly on NaN% of the trials.</p>
          <p>Your average response time was NaNms.</p>
          <p>Press any key to complete the experiment. Thank you!</p>","g","html-keyboard-response","50","180665","0.0-3.0","","","","",""
"2565","Welcome to the experiment. Press any key to begin.","g","html-keyboard-response","51","183231","0.0-4.0","","","","",""
"12466","
      <p>In this task, you will see word in a color</p>
      <p style='color:red;font-size:60pt;'>BLUE</p>
      <p>Press r, g, b, or y to identify the color, not the word</p>
      <p>E.g., press r for red in this example</p>
      <p>Make your responses as quickly and accurately as possible</p>
      <p>Press any key to begin.</p>
      ","enter","html-keyboard-response","52","195697","0.0-5.0","","","","",""
"null","<div style=""font-size:60px;"">+</div>","null","html-keyboard-response","53","198715","0.0-6.0-0.0","fixation","","","",""
"2610","<p style='font-size:60pt; opacity:1; color:blue;'>BLUE</p>","b","html-keyboard-response","54","201326","0.0-6.0-1.0","stroop","normal","b","Congruent","true"
"null","<div style=""font-size:60px;"">+</div>","null","html-keyboard-response","55","203339","0.0-6.0-0.1","fixation","","","",""
"1402","<p style='font-size:60pt; opacity:1; color:yellow;'>GREEN</p>","y","html-keyboard-response","56","204742","0.0-6.0-1.1","stroop","normal","y","Incongruent","true"
"null","<div style=""font-size:60px;"">+</div>","null","html-keyboard-response","57","206770","0.0-6.0-0.2","fixation","","","",""
"1557","<p style='font-size:60pt; opacity:1; color:red;'>YELLOW</p>","r","html-keyboard-response","58","208328","0.0-6.0-1.2","stroop","normal","r","Incongruent","true"
"null","<div style=""font-size:60px;"">+</div>","null","html-keyboard-response","59","210338","0.0-6.0-0.3","fixation","","","",""
"1206","<p style='font-size:60pt; opacity:1; color:yellow;'>YELLOW</p>","y","html-keyboard-response","60","211546","0.0-6.0-1.3","stroop","normal","y","Congruent","true"
"null","<div style=""font-size:60px;"">+</div>","null","html-keyboard-response","61","212552","0.0-6.0-0.4","fixation","","","",""
"1659","<p style='font-size:60pt; opacity:1; color:blue;'>YELLOW</p>","b","html-keyboard-response","62","214211","0.0-6.0-1.4","stroop","normal","b","Incongruent","true"
"null","<div style=""font-size:60px;"">+</div>","null","html-keyboard-response","63","215219","0.0-6.0-0.5","fixation","","","",""
"1458","<p style='font-size:60pt; opacity:1; color:red;'>BLUE</p>","r","html-keyboard-response","64","216677","0.0-6.0-1.5","stroop","normal","r","Incongruent","true"
"null","<div style=""font-size:60px;"">+</div>","null","html-keyboard-response","65","218690","0.0-6.0-0.6","fixation","","","",""
"1829","<p style='font-size:60pt; opacity:1; color:red;'>RED</p>","r","html-keyboard-response","66","220520","0.0-6.0-1.6","stroop","normal","r","Congruent","true"
"null","<div style=""font-size:60px;"">+</div>","null","html-keyboard-response","67","221527","0.0-6.0-0.7","fixation","","","",""
"1440","<p style='font-size:60pt; opacity:1; color:yellow;'>RED</p>","y","html-keyboard-response","68","222968","0.0-6.0-1.7","stroop","normal","y","Incongruent","true"
"null","<div style=""font-size:60px;"">+</div>","null","html-keyboard-response","69","223978","0.0-6.0-0.8","fixation","","","",""
"1255","<p style='font-size:60pt; opacity:1; color:yellow;'>YELLOW</p>","y","html-keyboard-response","70","225233","0.0-6.0-1.8","stroop","normal","y","Congruent","true"
"null","<div style=""font-size:60px;"">+</div>","null","html-keyboard-response","71","227266","0.0-6.0-0.9","fixation","","","",""
"1833","<p style='font-size:60pt; opacity:1; color:green;'>BLUE</p>","g","html-keyboard-response","72","229100","0.0-6.0-1.9","stroop","normal","g","Incongruent","true"
"null","<div style=""font-size:60px;"">+</div>","null","html-keyboard-response","73","230110","0.0-6.0-0.10","fixation","","","",""
"966","<p style='font-size:60pt; opacity:1; color:red;'>RED</p>","r","html-keyboard-response","74","231076","0.0-6.0-1.10","stroop","normal","r","Congruent","true"
"null","<div style=""font-size:60px;"">+</div>","null","html-keyboard-response","75","233090","0.0-6.0-0.11","fixation","","","",""
"1124","<p style='font-size:60pt; opacity:1; color:yellow;'>BLUE</p>","y","html-keyboard-response","76","234215","0.0-6.0-1.11","stroop","normal","y","Incongruent","true"
"null","<div style=""font-size:60px;"">+</div>","null","html-keyboard-response","77","235226","0.0-6.0-0.12","fixation","","","",""
"1498","<p style='font-size:60pt; opacity:1; color:blue;'>RED</p>","b","html-keyboard-response","78","236726","0.0-6.0-1.12","stroop","normal","b","Incongruent","true"
"null","<div style=""font-size:60px;"">+</div>","null","html-keyboard-response","79","237734","0.0-6.0-0.13","fixation","","","",""
"1906","<p style='font-size:60pt; opacity:1; color:blue;'>GREEN</p>","b","html-keyboard-response","80","239640","0.0-6.0-1.13","stroop","normal","b","Incongruent","true"
"null","<div style=""font-size:60px;"">+</div>","null","html-keyboard-response","81","241649","0.0-6.0-0.14","fixation","","","",""
"1748","<p style='font-size:60pt; opacity:1; color:green;'>GREEN</p>","g","html-keyboard-response","82","243398","0.0-6.0-1.14","stroop","normal","g","Congruent","true"
"null","<div style=""font-size:60px;"">+</div>","null","html-keyboard-response","83","244407","0.0-6.0-0.15","fixation","","","",""
"959","<p style='font-size:60pt; opacity:1; color:yellow;'>YELLOW</p>","y","html-keyboard-response","84","245367","0.0-6.0-1.15","stroop","normal","y","Congruent","true"
"null","<div style=""font-size:60px;"">+</div>","null","html-keyboard-response","85","247376","0.0-6.0-0.16","fixation","","","",""
"1195","<p style='font-size:60pt; opacity:1; color:green;'>GREEN</p>","g","html-keyboard-response","86","248572","0.0-6.0-1.16","stroop","normal","g","Congruent","true"
"null","<div style=""font-size:60px;"">+</div>","null","html-keyboard-response","87","249586","0.0-6.0-0.17","fixation","","","",""
"1221","<p style='font-size:60pt; opacity:1; color:green;'>RED</p>","g","html-keyboard-response","88","250807","0.0-6.0-1.17","stroop","normal","g","Incongruent","true"
"null","<div style=""font-size:60px;"">+</div>","null","html-keyboard-response","89","252817","0.0-6.0-0.18","fixation","","","",""
"1182","<p style='font-size:60pt; opacity:1; color:blue;'>BLUE</p>","b","html-keyboard-response","90","254000","0.0-6.0-1.18","stroop","normal","b","Congruent","true"
"null","<div style=""font-size:60px;"">+</div>","null","html-keyboard-response","91","255009","0.0-6.0-0.19","fixation","","","",""
"1330","<p style='font-size:60pt; opacity:1; color:green;'>GREEN</p>","g","html-keyboard-response","92","256339","0.0-6.0-1.19","stroop","normal","g","Congruent","true"
"null","<div style=""font-size:60px;"">+</div>","null","html-keyboard-response","93","257350","0.0-6.0-0.20","fixation","","","",""
"1554","<p style='font-size:60pt; opacity:1; color:red;'>RED</p>","r","html-keyboard-response","94","258905","0.0-6.0-1.20","stroop","normal","r","Congruent","true"
"null","<div style=""font-size:60px;"">+</div>","null","html-keyboard-response","95","259913","0.0-6.0-0.21","fixation","","","",""
"1489","<p style='font-size:60pt; opacity:1; color:blue;'>BLUE</p>","b","html-keyboard-response","96","261403","0.0-6.0-1.21","stroop","normal","b","Congruent","true"
"null","<div style=""font-size:60px;"">+</div>","null","html-keyboard-response","97","262417","0.0-6.0-0.22","fixation","","","",""
"1755","<p style='font-size:60pt; opacity:1; color:red;'>GREEN</p>","r","html-keyboard-response","98","264172","0.0-6.0-1.22","stroop","normal","r","Incongruent","true"
"null","<div style=""font-size:60px;"">+</div>","null","html-keyboard-response","99","265185","0.0-6.0-0.23","fixation","","","",""
"2366","<p style='font-size:60pt; opacity:1; color:green;'>YELLOW</p>","g","html-keyboard-response","100","267552","0.0-6.0-1.23","stroop","normal","g","Incongruent","true"
"2940","<p>You responded correctly on 100% of the trials.</p>
          <p>Your average response time was 2095ms.</p>
          <p>Press any key to complete the experiment. Thank you!</p>","enter","html-keyboard-response","101","270499","0.0-7.0","","","","",""